File: Spring 2025 MEMT680/EIS example.mpt
EC-Lab ASCII FILE
Nb header lines : 70

Galvano Electrochemical Impedance Spectroscopy

Run on channel : 1 (SN 19339)
User :
Electrode connection : standard
Potential control : Ewe
Ewe ctrl range : min = -10.00 V, max = 10.00 V
Ewe,I filtering : 50 kHz
Safety Limits :
	Do not start on E overload
Channel : Grounded
Acquisition started on : 02/21/2024 07:25:28.346
Technique started on : 02/21/2024 07:25:29.706
Loaded Setting File :  NONE
Saved on :
	File : 20240221_LiFun_EIS_200kHz_1Hz_10mA_test_C01.mpr
	Directory : C:\Users\changlab\Documents\EC-Lab\Data\
	Host : 10.147.18.44
Device : SP-300 (SN 2383)
Address : USB
EC-Lab for windows v11.52 (software)
Internet server v11.52 (firmware)
Command interpretor v11.52 (firmware)
Electrode material :
Initial state :
Electrolyte :
Comments :
Cable : standard
Electrode surface area : 0.001 cm²
Characteristic mass : 0.001 g
Equivalent Weight : 0.000 g/eq.
Density : 0.000 g/cm3
Volume (V) : 0.001 cm³
Record EIS quality indicators
Cycle Definition : Charge/Discharge alternance
Mode                Single sine
Is                  0.000
unit Is             mA
vs.                 <None>
tIs (h:m:s)         0:00:0.0000
record              0
dE (mV)             0.000
dt (s)              0.000
fi                  200.000
unit fi             kHz
ff                  1.000
unit ff             Hz
Nd                  12
Points              per decade
spacing             Logarithmic
Ia/Va               Ia
Ia                  10.000
unit  Ia            mA
va pourcent         0.10
pw                  0.10
Na                  2
corr                0
E range min (V)     -10.000
E range max (V)     10.000
I Range             100 mA
Bandwidth           8
nc cycles           0
goto Ns'            0
nr cycles           0
inc. cycle          0

freq/Hz	Re(Z)/Ohm	-Im(Z)/Ohm	|Z|/Ohm	Phase(Z)/deg	time/s	<Ewe>/V	<I>/mA	Cs/µF	Cp/µF	cycle number	|Ewe|/V	|I|/A	Ns	I Range	(Q-Qo)/mA.h	THD Ewe/%	NSD Ewe/%	NSR Ewe/%	|Ewe h2|/V	|Ewe h3|/V	|Ewe h4|/V	|Ewe h5|/V	|Ewe h6|/V	|Ewe h7|/V	THD I/%	NSD I/%	NSR I/%	|I h2|/A	|I h3|/A	|I h4|/A	|I h5|/A	|I h6|/A	|I h7|/A	Re(Y)/Ohm-1	Im(Y)/Ohm-1	|Y|/Ohm-1	Phase(Y)/deg	Re(C)/nF	Im(C)/nF	|C|/nF	Phase(C)/deg	Re(M)	Im(M)	|M|	Phase(M)/deg	Re(Permittivity)	Im(Permittivity)	|Permittivity|	Phase(Permittivity)/deg	Re(Resistivity)/Ohm.cm	Im(Resistivity)/Ohm.cm	|Resistivity|/Ohm.cm	Phase(Resistivity)/deg	Re(Conductivity)/mS/cm	Im(Conductivity)/mS/cm	|Conductivity|/mS/cm	Phase(Conductivity)/deg	Tan(Delta)	Loss Angle(Delta)/deg	dq/mA.h
199998	0.343539	-0.104917	0.359203	16.9827	1.3596	3.01775	0.0101631	-7.58485	-0.647084	1	0.00351035	0.00977259	0	38	-INF	-1	-1	-1	0	0	0	0	0	0	-1	-1	-1	0	0	0	0	0	0	2.66254	-0.813143	2.78394	-16.9827	-647.084	2118.8	2215.41	-106.983	0.0000000E+000	0.0000000E+000	0.0000000E+000	106.983	0.0000000E+000	0.0000000E+000	0.0000000E+000	-106.983	0.0000000E+000	0.0000000E+000	0.0000000E+000	16.9827	0.0000000E+000	0.0000000E+000	0.0000000E+000	-16.9827	3.27438	73.0173	-INF
165269	0.343389	-0.0861964	0.354042	14.0911	2.1776	3.01775	0.0104184	-11.1722	-0.662231	1	0.00364585	0.0102978	0	38	-INF	-1	-1	-1	0	0	0	0	0	0	-1	-1	-1	0	0	0	0	0	0	2.73953	-0.687669	2.82452	-14.0911	-662.231	2638.19	2720.04	-104.091	0.0000000E+000	0.0000000E+000	0.0000000E+000	104.091	0.0000000E+000	0.0000000E+000	0.0000000E+000	-104.091	0.0000000E+000	0.0000000E+000	0.0000000E+000	14.0911	0.0000000E+000	0.0000000E+000	0.0000000E+000	-14.0911	3.98379	75.9089	NAN
136598	0.343886	-0.0698155	0.350901	11.4762	2.9966	3.01775	0.0107035	-16.6887	-0.660628	1	0.00364003	0.0103734	0	38	-INF	-1	-1	-1	0	0	0	0	0	0	-1	-1	-1	0	0	0	0	0	0	2.79283	-0.566998	2.8498	-11.4762	-660.628	3254.02	3320.4	-101.476	0.0000000E+000	0.0000000E+000	0.0000000E+000	101.476	0.0000000E+000	0.0000000E+000	0.0000000E+000	-101.476	0.0000000E+000	0.0000000E+000	0.0000000E+000	11.4762	0.0000000E+000	0.0000000E+000	0.0000000E+000	-11.4762	4.92564	78.5238	NAN
112864	0.344478	-0.0557082	0.348953	9.18622	3.8136	3.01775	0.0101706	-25.3132	-0.645135	1	0.00360905	0.0103425	0	38	-INF	-1	-1	-1	0	0	0	0	0	0	-1	-1	-1	0	0	0	0	0	0	2.82896	-0.457493	2.86571	-9.18622	-645.135	3989.26	4041.09	-99.1862	0.0000000E+000	0.0000000E+000	0.0000000E+000	99.1862	0.0000000E+000	0.0000000E+000	0.0000000E+000	-99.1862	0.0000000E+000	0.0000000E+000	0.0000000E+000	9.18622	0.0000000E+000	0.0000000E+000	0.0000000E+000	-9.18622	6.18361	80.8138	NAN
93267.5	0.345304	-0.0449784	0.348221	7.42142	4.6306	3.01775	0.00976997	-37.939	-0.632972	1	0.00358223	0.0102872	0	38	-INF	0.341122	0.237892	6.69398	3.809e-06	5.32767e-06	3.60257e-06	3.62394e-06	3.16315e-06	6.82546e-06	0.0604806	0.041087	0.178571	4.72953e-06	3.26043e-06	9.27264e-07	2.0122e-06	4.13558e-07	2.75767e-07	2.84768	-0.370932	2.87174	-7.42142	-632.972	4859.39	4900.44	-97.4214	0.0000000E+000	0.0000000E+000	0.0000000E+000	97.4214	0.0000000E+000	0.0000000E+000	0.0000000E+000	-97.4214	0.0000000E+000	0.0000000E+000	0.0000000E+000	7.42142	0.0000000E+000	0.0000000E+000	0.0000000E+000	-7.42142	7.6771	82.5786	NAN
77067.2	0.345664	-0.0358937	0.347522	5.92834	5.4476	3.01775	0.0101911	-57.5351	-0.613765	1	0.00355355	0.0102254	0	38	-INF	0.378622	0.149808	6.80554	4.51393e-06	3.82984e-06	5.59894e-06	4.51137e-06	8.56971e-06	2.78171e-06	0.0557535	0.0344875	0.179946	3.92099e-06	3.27615e-06	1.28717e-06	1.99535e-06	6.76684e-07	3.91801e-07	2.86212	-0.297202	2.87751	-5.92834	-613.766	5910.7	5942.48	-95.9283	0.0000000E+000	0.0000000E+000	0.0000000E+000	95.9283	0.0000000E+000	0.0000000E+000	0.0000000E+000	-95.9283	0.0000000E+000	0.0000000E+000	0.0000000E+000	5.92834	0.0000000E+000	0.0000000E+000	0.0000000E+000	-5.92834	9.63022	84.0717	NAN
63687.6	0.346872	-0.0276648	0.347973	4.55997	6.1266	3.01775	0.0104948	-90.3313	-0.570952	1	0.00377488	0.0108482	0	38	-INF	0.248976	0.227891	6.35759	4.7141e-06	1.4654e-06	2.96328e-06	2.05766e-06	6.36767e-06	2.41333e-06	0.0659663	0.0542797	0.170765	4.16834e-06	4.96647e-06	1.25527e-06	2.59731e-06	3.832e-07	6.01326e-07	2.86469	-0.228473	2.87378	-4.55997	-570.953	7158.83	7181.56	-94.56	0.0000000E+000	0.0000000E+000	0.0000000E+000	94.56	0.0000000E+000	0.0000000E+000	0.0000000E+000	-94.56	0.0000000E+000	0.0000000E+000	0.0000000E+000	4.55997	0.0000000E+000	0.0000000E+000	0.0000000E+000	-4.55997	12.5384	85.44	NAN
52627.7	0.347109	-0.0206793	0.347725	3.40941	6.9456	3.01776	0.0106606	-146.241	-0.517214	1	0.00357011	0.0102671	0	38	-INF	0.432981	0.178386	6.64533	4.26605e-06	5.31798e-06	7.22267e-06	6.57375e-06	4.4758e-06	7.51585e-06	0.0681192	0.0480016	0.179972	3.75629e-06	4.68929e-06	1.33436e-06	3.27601e-06	4.11192e-07	2.70387e-07	2.87075	-0.171027	2.87584	-3.40941	-517.214	8681.63	8697.02	-93.4094	0.0000000E+000	0.0000000E+000	0.0000000E+000	93.4094	0.0000000E+000	0.0000000E+000	0.0000000E+000	-93.4094	0.0000000E+000	0.0000000E+000	0.0000000E+000	3.40941	0.0000000E+000	0.0000000E+000	0.0000000E+000	-3.40941	16.7854	86.5906	NAN
43488.3	0.34755	-0.0145133	0.347852	2.39122	7.6256	3.01776	0.0113668	-252.163	-0.438959	1	0.00368683	0.0105988	0	38	-INF	0.280749	0.156908	6.50047	6.70814e-06	4.96413e-06	3.34367e-06	2.96888e-06	3.25409e-06	1.99881e-06	0.0727974	0.00521823	0.17007	3.17252e-06	5.86815e-06	1.2554e-06	3.51486e-06	6.55225e-07	7.07567e-07	2.87228	-0.119943	2.87478	-2.39122	-438.958	10511.7	10520.9	-92.3912	0.0000000E+000	0.0000000E+000	0.0000000E+000	92.3912	0.0000000E+000	0.0000000E+000	0.0000000E+000	-92.3912	0.0000000E+000	0.0000000E+000	0.0000000E+000	2.39122	0.0000000E+000	0.0000000E+000	0.0000000E+000	-2.39122	23.9469	87.6088	NAN
35935.6	0.348531	-0.00991619	0.348672	1.62971	8.3046	3.01776	0.0109755	-446.632	-0.361248	1	0.00377165	0.0108172	0	38	-INF	0.306234	0.133686	6.34191	3.10131e-06	3.97407e-06	2.55269e-06	2.7735e-06	7.02064e-06	6.26566e-06	0.0772484	0.0521312	0.17461	2.80267e-06	6.4589e-06	1.48954e-06	4.17596e-06	4.81486e-07	3.94293e-07	2.86687	-0.0815664	2.86803	-1.62971	-361.249	12697	12702.2	-91.6297	0.0000000E+000	0.0000000E+000	0.0000000E+000	91.6297	0.0000000E+000	0.0000000E+000	0.0000000E+000	-91.6297	0.0000000E+000	0.0000000E+000	0.0000000E+000	1.62971	0.0000000E+000	0.0000000E+000	0.0000000E+000	-1.62971	35.1476	88.3703	NAN
29700.5	0.349667	-0.00564738	0.349712	0.92529	8.9836	3.01776	0.00994886	-948.875	-0.247447	1	0.00383063	0.0109537	0	38	-INF	0.298467	0.232038	6.23164	4.49414e-06	3.84661e-06	6.92838e-06	3.79241e-06	4.33243e-06	3.06716e-06	0.0838166	0.0292814	0.165484	3.14849e-06	7.30056e-06	8.36e-07	4.39471e-06	6.46589e-07	7.60013e-07	2.85912	-0.046177	2.85949	-0.92529	-247.448	15321.1	15323.1	-90.9253	0.0000000E+000	0.0000000E+000	0.0000000E+000	90.9253	0.0000000E+000	0.0000000E+000	0.0000000E+000	-90.9253	0.0000000E+000	0.0000000E+000	0.0000000E+000	0.92529	0.0000000E+000	0.0000000E+000	0.0000000E+000	-0.92529	61.9166	89.0747	NAN
24541.6	0.35092	-0.00201117	0.350925	0.328366	9.8006	3.01776	0.00947933	-3224.55	-0.10591	1	0.00357746	0.0101944	0	38	-INF	0.447117	0.226377	6.74031	8.14701e-06	2.15135e-06	8.34811e-06	5.59092e-06	4.76027e-06	6.89651e-06	0.0900062	0.048897	0.18318	2.8592e-06	6.70319e-06	9.30768e-07	5.44233e-06	5.86403e-07	4.04813e-07	2.84956	-0.0163312	2.84961	-0.328366	-105.911	18479.7	18480	-90.3284	0.0000000E+000	0.0000000E+000	0.0000000E+000	90.3284	0.0000000E+000	0.0000000E+000	0.0000000E+000	-90.3284	0.0000000E+000	0.0000000E+000	0.0000000E+000	0.328366	0.0000000E+000	0.0000000E+000	0.0000000E+000	-0.328366	174.486	89.6716	NAN
20282.8	0.352459	0.00239484	0.352467	-0.3893	10.4796	3.01775	0.00988923	3276.54	0.151263	1	0.00359005	0.0101855	0	38	-INF	0.377428	0.14098	6.66354	4.44083e-06	5.16341e-06	3.27365e-06	7.2787e-06	6.9081e-06	1.92451e-06	0.0930382	0.0541911	0.184636	2.76026e-06	6.81847e-06	1.21714e-06	5.81306e-06	1.311e-07	5.97143e-07	2.83708	0.019277	2.83715	0.3893	151.262	22262	22262.5	-89.6107	0.0000000E+000	0.0000000E+000	0.0000000E+000	89.6107	0.0000000E+000	0.0000000E+000	0.0000000E+000	-89.6107	0.0000000E+000	0.0000000E+000	0.0000000E+000	-0.3893	0.0000000E+000	0.0000000E+000	0.0000000E+000	0.3893	147.174	89.6107	NAN
16757	0.354155	0.00478642	0.354188	-0.774307	11.1586	3.01777	0.00977744	1984.33	0.362383	1	0.0035791	0.0101051	0	38	-INF	0.361639	0.152094	6.7416	7.71904e-06	5.05133e-06	3.51074e-06	3.98806e-06	6.42463e-06	2.92461e-06	0.0926075	0.0505024	0.185088	2.58673e-06	6.84338e-06	7.80155e-07	5.72182e-06	4.47274e-07	3.70008e-07	2.8231	0.0381543	2.82336	0.774307	362.383	26813.4	26815.8	-89.2257	0.0000000E+000	0.0000000E+000	0.0000000E+000	89.2257	0.0000000E+000	0.0000000E+000	0.0000000E+000	-89.2257	0.0000000E+000	0.0000000E+000	0.0000000E+000	-0.774307	0.0000000E+000	0.0000000E+000	0.0000000E+000	0.774307	73.9917	89.2257	NAN
13852.8	0.354801	0.00735326	0.354877	-1.18729	11.8376	3.01776	0.00949795	1562.44	0.67082	1	0.00353394	0.0099582	0	38	-INF	0.457584	0.23391	6.72059	5.22699e-06	8.52037e-06	4.50219e-06	8.38382e-06	5.68795e-06	3.80035e-06	0.100015	0.0131497	0.186491	2.3303e-06	7.05281e-06	1.35301e-06	6.41842e-06	2.98285e-07	7.33506e-07	2.81727	0.058388	2.81787	1.18729	670.82	32367.6	32374.6	-88.8127	0.0000000E+000	0.0000000E+000	0.0000000E+000	88.8127	0.0000000E+000	0.0000000E+000	0.0000000E+000	-88.8127	0.0000000E+000	0.0000000E+000	0.0000000E+000	-1.18729	0.0000000E+000	0.0000000E+000	0.0000000E+000	1.18729	48.2509	88.8127	NAN
11440.4	0.356462	0.00974302	0.356595	-1.56565	12.5166	3.01778	0.0100327	1427.86	1.06591	1	0.00346488	0.00971657	0	38	-INF	0.376098	0.0720408	6.86028	3.21969e-06	3.58281e-06	8.06259e-06	5.03946e-06	3.56767e-06	5.34563e-06	0.106122	0.0206146	0.189485	2.46788e-06	7.20046e-06	1.09701e-06	6.82932e-06	3.18207e-07	6.06176e-07	2.80325	0.0766202	2.8043	1.56565	1065.91	38997.9	39012.5	-88.4343	0.0000000E+000	0.0000000E+000	0.0000000E+000	88.4343	0.0000000E+000	0.0000000E+000	0.0000000E+000	-88.4343	0.0000000E+000	0.0000000E+000	0.0000000E+000	-1.56565	0.0000000E+000	0.0000000E+000	0.0000000E+000	1.56565	36.5864	88.4343	NAN
9461.6	0.358071	0.0127791	0.358299	-2.04394	13.1946	3.01777	0.0134256	1316.31	1.67442	1	0.0038608	0.0107754	0	38	-INF	0.332394	0.104282	6.22335	4.20781e-06	5.44102e-06	6.11199e-06	2.55511e-06	4.35454e-06	4.5359e-06	0.102077	0.0489613	0.17603	2.52164e-06	7.48018e-06	9.57556e-07	7.48112e-06	9.15021e-07	9.34788e-07	2.78919	0.0995423	2.79097	2.04394	1674.41	46917.4	46947.2	-87.9561	0.0000000E+000	0.0000000E+000	0.0000000E+000	87.9561	0.0000000E+000	0.0000000E+000	0.0000000E+000	-87.9561	0.0000000E+000	0.0000000E+000	0.0000000E+000	-2.04394	0.0000000E+000	0.0000000E+000	0.0000000E+000	2.04394	28.0201	87.9561	NAN
7812.5	0.359872	0.0148548	0.360179	-2.36371	13.8646	3.01778	0.0133847	1371.4	2.33271	1	0.00388854	0.0107961	0	38	-INF	0.376635	0.190248	6.16986	4.73442e-06	3.34678e-06	5.26671e-06	6.48107e-06	5.01949e-06	7.96371e-06	0.103065	0.00436211	0.174429	2.81495e-06	7.74074e-06	9.65315e-07	7.37168e-06	4.94578e-07	6.44897e-07	2.77404	0.114507	2.7764	2.36371	2332.71	56512.2	56560.4	-87.6363	0.0000000E+000	0.0000000E+000	0.0000000E+000	87.6363	0.0000000E+000	0.0000000E+000	0.0000000E+000	-87.6363	0.0000000E+000	0.0000000E+000	0.0000000E+000	-2.36371	0.0000000E+000	0.0000000E+000	0.0000000E+000	2.36371	24.226	87.6363	NAN
6460.09	0.361716	0.0169733	0.362114	-2.6866	14.5546	3.01777	0.0134145	1451.49	3.18902	1	0.00391436	0.0108097	0	38	-INF	0.36059	0.22158	6.05398	5.05962e-06	4.9624e-06	4.16215e-06	7.38383e-06	3.64778e-06	7.20392e-06	0.107644	0.0373446	0.175008	2.48867e-06	7.98921e-06	1.10341e-06	7.87948e-06	5.03848e-07	1.29577e-06	2.75853	0.129442	2.76156	2.6866	3189.02	67960.9	68035.7	-87.3134	0.0000000E+000	0.0000000E+000	0.0000000E+000	87.3134	0.0000000E+000	0.0000000E+000	0.0000000E+000	-87.3134	0.0000000E+000	0.0000000E+000	0.0000000E+000	-2.6866	0.0000000E+000	0.0000000E+000	0.0000000E+000	2.6866	21.3109	87.3134	NAN
5338.28	0.364325	0.0191325	0.364827	-3.00612	15.2866	3.01777	0.0139231	1558.29	4.28564	1	0.00394697	0.0108187	0	38	-INF	0.347963	0.195517	6.00753	2.47514e-06	3.82109e-06	7.26871e-06	6.53349e-06	3.47058e-06	6.57512e-06	0.10341	0.0124413	0.174289	2.42589e-06	7.75051e-06	1.03778e-06	7.49657e-06	4.11973e-07	1.25832e-06	2.73725	0.143746	2.74103	3.00612	4285.64	81608.2	81720.6	-86.9939	0.0000000E+000	0.0000000E+000	0.0000000E+000	86.9939	0.0000000E+000	0.0000000E+000	0.0000000E+000	-86.9939	0.0000000E+000	0.0000000E+000	0.0000000E+000	-3.00612	0.0000000E+000	0.0000000E+000	0.0000000E+000	3.00612	19.0422	86.9939	NAN
4411.41	0.366235	0.0214081	0.36686	-3.34539	16.0306	3.01776	0.0153541	1685.25	5.73878	1	0.00397149	0.0108256	0	38	-INF	0.275968	0.188621	5.94231	4.4323e-06	3.51397e-06	4.35613e-06	2.75477e-06	5.02485e-06	5.76924e-06	0.104321	0.078449	0.188106	2.9556e-06	7.58509e-06	1.12155e-06	7.62425e-06	9.5922e-07	9.0342e-07	2.72119	0.159066	2.72584	3.34539	5738.78	98175.2	98342.7	-86.6546	0.0000000E+000	0.0000000E+000	0.0000000E+000	86.6546	0.0000000E+000	0.0000000E+000	0.0000000E+000	-86.6546	0.0000000E+000	0.0000000E+000	0.0000000E+000	-3.34539	0.0000000E+000	0.0000000E+000	0.0000000E+000	3.34539	17.1073	86.6546	NAN
3643.83	0.369265	0.0239889	0.370044	-3.71693	16.7756	3.01778	0.0151063	1820.75	7.65183	1	0.00400779	0.0108306	0	38	-INF	0.446528	0.110896	5.98836	1.1263e-05	5.59973e-06	7.59437e-06	5.06461e-06	6.51977e-06	4.64381e-06	0.103674	0.0230059	0.177155	2.92006e-06	7.71376e-06	8.81527e-07	7.43912e-06	5.85737e-07	1.12836e-06	2.6967	0.175188	2.70238	3.71693	7651.83	117786	118034	-86.2831	0.0000000E+000	0.0000000E+000	0.0000000E+000	86.2831	0.0000000E+000	0.0000000E+000	0.0000000E+000	-86.2831	0.0000000E+000	0.0000000E+000	0.0000000E+000	-3.71693	0.0000000E+000	0.0000000E+000	0.0000000E+000	3.71693	15.3932	86.2831	NAN
3010.97	0.371493	0.0263609	0.372427	-4.05887	17.5206	3.01777	0.0146088	2005.18	10.046	1	0.00403446	0.0108329	0	38	-INF	0.222234	0.235168	5.87675	6.30131e-06	2.71001e-06	2.36931e-06	2.0977e-06	3.44333e-06	2.98565e-06	0.107455	0.0644069	0.184188	2.66209e-06	7.96452e-06	1.02896e-06	7.85647e-06	4.80176e-07	1.28713e-06	2.67835	0.190054	2.68509	4.05887	10046	141574	141930	-85.9411	0.0000000E+000	0.0000000E+000	0.0000000E+000	85.9411	0.0000000E+000	0.0000000E+000	0.0000000E+000	-85.9411	0.0000000E+000	0.0000000E+000	0.0000000E+000	-4.05887	0.0000000E+000	0.0000000E+000	0.0000000E+000	4.05887	14.0926	85.9411	NAN
2489.2	0.374678	0.0284462	0.375756	-4.34166	18.2646	3.01777	0.0141803	2247.69	12.8817	1	0.00407127	0.0108349	0	38	-INF	0.341229	0.228833	5.8822	8.21154e-06	5.50367e-06	3.35281e-06	4.74105e-06	3.49668e-06	6.84394e-06	0.105945	0.0515899	0.184342	2.44486e-06	7.93255e-06	8.76603e-07	7.81687e-06	2.91092e-07	9.15586e-07	2.65366	0.201471	2.6613	4.34166	12881.7	169670	170159	-85.6583	0.0000000E+000	0.0000000E+000	0.0000000E+000	85.6583	0.0000000E+000	0.0000000E+000	0.0000000E+000	-85.6583	0.0000000E+000	0.0000000E+000	0.0000000E+000	-4.34166	0.0000000E+000	0.0000000E+000	0.0000000E+000	4.34166	13.1715	85.6583	NAN
2056.97	0.377693	0.0312515	0.378983	-4.73006	19.0086	3.01778	0.013897	2475.83	16.8354	1	0.00410671	0.0108361	0	38	-INF	0.403929	0.176427	5.81797	6.72559e-06	4.80324e-06	6.06475e-06	4.0633e-06	7.87584e-06	8.5177e-06	0.108408	0.0961889	0.193416	2.40625e-06	7.94021e-06	1.05515e-06	8.14243e-06	3.23693e-07	1.2313e-06	2.62965	0.217586	2.63864	4.73006	16835.4	203465	204160	-85.2699	0.0000000E+000	0.0000000E+000	0.0000000E+000	85.2699	0.0000000E+000	0.0000000E+000	0.0000000E+000	-85.2699	0.0000000E+000	0.0000000E+000	0.0000000E+000	-4.73006	0.0000000E+000	0.0000000E+000	0.0000000E+000	4.73006	12.0856	85.2699	NAN
1699.46	0.381779	0.0338555	0.383277	-5.06764	19.7526	3.01778	0.0140703	2766.18	21.5831	1	0.00415384	0.0108377	0	38	-INF	0.304547	0.1534	5.74641	7.46636e-07	2.97278e-06	8.92102e-06	6.24681e-06	4.34294e-06	2.95045e-06	0.108517	0.0325162	0.181445	2.74955e-06	7.78661e-06	1.16092e-06	8.1462e-06	3.18575e-07	1.44087e-06	2.59888	0.230465	2.60908	5.06764	21583.1	243387	244342	-84.9324	0.0000000E+000	0.0000000E+000	0.0000000E+000	84.9324	0.0000000E+000	0.0000000E+000	0.0000000E+000	-84.9324	0.0000000E+000	0.0000000E+000	0.0000000E+000	-5.06764	0.0000000E+000	0.0000000E+000	0.0000000E+000	5.06764	11.2767	84.9324	NAN
1404.55	0.385922	0.0363571	0.387631	-5.38185	20.4976	3.01778	0.0149013	3116.69	27.4179	1	0.00420161	0.0108392	0	38	-INF	0.362569	0.144829	5.65628	4.08068e-06	2.59785e-06	4.49848e-06	2.68627e-06	1.16151e-05	6.07318e-06	0.108208	0.0881535	0.192103	2.37551e-06	7.85481e-06	1.05826e-06	8.193e-06	5.29983e-07	1.24182e-06	2.5684	0.241965	2.57977	5.38185	27417.9	291035	292323	-84.6181	0.0000000E+000	0.0000000E+000	0.0000000E+000	84.6181	0.0000000E+000	0.0000000E+000	0.0000000E+000	-84.6181	0.0000000E+000	0.0000000E+000	0.0000000E+000	-5.38185	0.0000000E+000	0.0000000E+000	0.0000000E+000	5.38185	10.6148	84.6181	NAN
1160.37	0.390589	0.0390225	0.392534	-5.70531	21.2426	3.01778	0.0148901	3514.87	34.7365	1	0.00425459	0.0108388	0	38	-INF	0.3313	0.123979	5.66286	5.90513e-06	3.92739e-06	5.42184e-06	4.85776e-06	5.92886e-06	5.07681e-06	0.112494	0.086236	0.192126	2.57629e-06	8.16397e-06	1.46209e-06	8.44291e-06	5.91025e-07	1.16881e-06	2.53493	0.253257	2.54755	5.70531	34736.5	347689	349420	-84.2947	0.0000000E+000	0.0000000E+000	0.0000000E+000	84.2947	0.0000000E+000	0.0000000E+000	0.0000000E+000	-84.2947	0.0000000E+000	0.0000000E+000	0.0000000E+000	-5.70531	0.0000000E+000	0.0000000E+000	0.0000000E+000	5.70531	10.0093	84.2947	NAN
959.076	0.395339	0.0415872	0.39752	-6.00508	21.9866	3.01777	0.0149926	3990.32	43.6726	1	0.00430877	0.0108391	0	38	-INF	0.304918	0.204867	5.50542	2.37761e-06	8.04062e-06	4.84194e-06	5.57191e-06	5.90429e-06	3.23832e-06	0.110147	0.0961684	0.192587	2.35549e-06	7.97974e-06	1.34712e-06	8.31113e-06	5.74273e-07	1.43292e-06	2.50179	0.263173	2.5156	6.00508	43672.6	415163	417454	-83.9949	0.0000000E+000	0.0000000E+000	0.0000000E+000	83.9949	0.0000000E+000	0.0000000E+000	0.0000000E+000	-83.9949	0.0000000E+000	0.0000000E+000	0.0000000E+000	-6.00508	0.0000000E+000	0.0000000E+000	0.0000000E+000	6.00508	9.50626	83.9949	NAN
792.719	0.400523	0.0448546	0.403027	-6.38994	22.7316	3.01777	0.0153	4476.03	55.4422	1	0.00436877	0.0108399	0	38	-INF	0.339367	0.09932	5.43986	3.86111e-06	6.58744e-06	2.5867e-06	9.9035e-06	2.74078e-06	5.56877e-06	0.109232	0.0692247	0.191218	2.64782e-06	8.09441e-06	1.05176e-06	8.05962e-06	5.71631e-07	1.07713e-06	2.46581	0.276147	2.48123	6.38994	55442.2	495063	498158	-83.6101	0.0000000E+000	0.0000000E+000	0.0000000E+000	83.6101	0.0000000E+000	0.0000000E+000	0.0000000E+000	-83.6101	0.0000000E+000	0.0000000E+000	0.0000000E+000	-6.38994	0.0000000E+000	0.0000000E+000	0.0000000E+000	6.38994	8.92935	83.6101	NAN
654.791	0.406759	0.0473615	0.409507	-6.64141	23.4766	3.01781	0.0188122	5132.06	68.6469	1	0.00443933	0.0108407	0	38	-INF	0.251472	0.128308	5.35816	1.59638e-06	4.04051e-06	4.56866e-06	5.71048e-06	3.798e-06	5.39202e-06	0.110211	0.00798695	0.181847	2.56954e-06	8.05812e-06	9.10968e-07	8.18934e-06	6.85655e-07	1.53216e-06	2.42557	0.282425	2.44196	6.64141	68646.9	589566	593549	-83.3586	0.0000000E+000	0.0000000E+000	0.0000000E+000	83.3586	0.0000000E+000	0.0000000E+000	0.0000000E+000	-83.3586	0.0000000E+000	0.0000000E+000	0.0000000E+000	-6.64141	0.0000000E+000	0.0000000E+000	0.0000000E+000	6.64141	8.58838	83.3586	NAN
541.212	0.412504	0.0501099	0.415537	-6.92619	24.2206	3.01782	0.0179067	5868.53	85.3408	1	0.00450487	0.0108411	0	38	-INF	0.325004	0.170917	5.37755	4.1329e-06	6.37986e-06	4.42351e-06	7.81582e-06	6.08515e-06	3.99204e-06	0.10728	0.00627565	0.180643	2.28578e-06	7.95779e-06	1.18621e-06	7.92801e-06	5.88108e-07	1.31765e-06	2.38896	0.290205	2.40653	6.92619	85340.8	702526	707690	-83.0738	0.0000000E+000	0.0000000E+000	0.0000000E+000	83.0738	0.0000000E+000	0.0000000E+000	0.0000000E+000	-83.0738	0.0000000E+000	0.0000000E+000	0.0000000E+000	-6.92619	0.0000000E+000	0.0000000E+000	0.0000000E+000	6.92619	8.232	83.0738	NAN
447.147	0.419447	0.0521008	0.422671	-7.08061	24.9626	3.01781	0.0179663	6831.66	103.803	1	0.00458168	0.0108398	0	38	-INF	0.292441	0.157384	5.1835	4.4276e-06	6.68756e-06	4.30652e-06	3.13181e-06	5.90019e-06	5.8181e-06	0.105502	0.0058356	0.182028	2.7656e-06	7.71775e-06	1.11785e-06	7.79044e-06	3.64784e-07	1.17916e-06	2.34787	0.291635	2.36591	7.08061	103803	835686	842109	-82.9194	0.0000000E+000	0.0000000E+000	0.0000000E+000	82.9194	0.0000000E+000	0.0000000E+000	0.0000000E+000	-82.9194	0.0000000E+000	0.0000000E+000	0.0000000E+000	-7.08061	0.0000000E+000	0.0000000E+000	0.0000000E+000	7.08061	8.05069	82.9194	NAN
369.645	0.426346	0.0549823	0.429876	-7.34841	25.7076	3.01781	0.0181657	7830.91	128.106	1	0.00465979	0.0108398	0	38	-INF	0.328309	0.159285	5.207	7.64629e-06	8.56137e-06	5.88144e-06	4.99983e-06	1.81547e-06	3.38473e-06	0.110426	0.00700836	0.183892	2.49905e-06	8.27339e-06	1.04143e-06	8.0868e-06	4.84439e-07	1.28879e-06	2.30714	0.297533	2.32625	7.34841	128107	993368	1.00159e+06	-82.6516	0.0000000E+000	0.0000000E+000	0.0000000E+000	82.6516	0.0000000E+000	0.0000000E+000	0.0000000E+000	-82.6516	0.0000000E+000	0.0000000E+000	0.0000000E+000	-7.34841	0.0000000E+000	0.0000000E+000	0.0000000E+000	7.34841	7.75423	82.6516	NAN
305.489	0.43353	0.0569693	0.437257	-7.48624	26.4516	3.01782	0.0193097	9145.01	155.236	1	0.00474041	0.0108413	0	38	-INF	0.365578	0.12352	4.96171	5.17357e-06	6.85788e-06	8.77391e-06	5.06607e-06	6.19868e-06	8.56406e-06	0.113992	0.00621331	0.183485	2.74453e-06	8.5668e-06	1.26404e-06	8.23997e-06	8.15857e-07	1.20245e-06	2.26749	0.297967	2.28699	7.48624	155236	1.18133e+06	1.19148e+06	-82.5138	0.0000000E+000	0.0000000E+000	0.0000000E+000	82.5138	0.0000000E+000	0.0000000E+000	0.0000000E+000	-82.5138	0.0000000E+000	0.0000000E+000	0.0000000E+000	-7.48624	0.0000000E+000	0.0000000E+000	0.0000000E+000	7.48624	7.60988	82.5138	NAN
252.341	0.441826	0.0585039	0.445683	-7.54288	27.1926	3.01782	0.0191159	10780.7	185.765	1	0.00483156	0.0108408	0	38	-INF	0.252927	0.136284	4.96419	6.78021e-06	3.71448e-06	3.6191e-06	4.45013e-06	5.96948e-06	2.90727e-06	0.105514	0.0104462	0.181698	2.35914e-06	7.66528e-06	1.03255e-06	7.88492e-06	9.7299e-07	1.46305e-06	2.22433	0.294533	2.24375	7.54288	185765	1.40291e+06	1.41516e+06	-82.4571	0.0000000E+000	0.0000000E+000	0.0000000E+000	82.4571	0.0000000E+000	0.0000000E+000	0.0000000E+000	-82.4571	0.0000000E+000	0.0000000E+000	0.0000000E+000	-7.54288	0.0000000E+000	0.0000000E+000	0.0000000E+000	7.54288	7.55208	82.4571	NAN
208.598	0.450016	0.0603144	0.45404	-7.63371	27.9386	3.01782	0.0183632	12649.9	223.225	1	0.00492203	0.0108405	0	38	-INF	0.256593	0.139791	4.90618	1.8226e-06	6.82601e-06	4.68743e-06	4.50534e-06	6.56858e-06	3.63929e-06	0.110426	0.0091281	0.183825	2.92346e-06	8.31823e-06	1.19421e-06	7.81683e-06	5.69542e-07	1.62706e-06	2.18293	0.292572	2.20245	7.63371	223225	1.66552e+06	1.68041e+06	-82.3663	0.0000000E+000	0.0000000E+000	0.0000000E+000	82.3663	0.0000000E+000	0.0000000E+000	0.0000000E+000	-82.3663	0.0000000E+000	0.0000000E+000	0.0000000E+000	-7.63371	0.0000000E+000	0.0000000E+000	0.0000000E+000	7.63371	7.46117	82.3663	NAN
172.372	0.457909	0.0615751	0.46203	-7.65864	28.6786	3.01782	0.0193339	14995	266.329	1	0.00500866	0.0108406	0	38	-INF	0.218095	0.220822	4.84277	3.45192e-06	3.15233e-06	6.13767e-06	5.49005e-06	2.58836e-06	3.78295e-06	0.105895	0.00872725	0.184069	2.5775e-06	7.54402e-06	8.49522e-07	8.07251e-06	1.03926e-06	1.03783e-06	2.14505	0.288446	2.16436	7.65864	266329	1.98058e+06	1.9984e+06	-82.3414	0.0000000E+000	0.0000000E+000	0.0000000E+000	82.3414	0.0000000E+000	0.0000000E+000	0.0000000E+000	-82.3414	0.0000000E+000	0.0000000E+000	0.0000000E+000	-7.65864	0.0000000E+000	0.0000000E+000	0.0000000E+000	7.65864	7.43658	82.3414	NAN
142.416	0.466357	0.0629945	0.470592	-7.69283	29.4166	3.01782	0.0191178	17740.2	317.889	1	0.0051017	0.010841	0	38	-INF	0.253584	0.156468	4.729	5.19973e-06	5.64333e-06	2.95578e-06	5.68281e-06	6.63799e-06	4.19601e-06	0.110956	0.00744119	0.18319	2.61613e-06	8.58468e-06	1.17173e-06	7.82859e-06	7.14229e-07	8.59465e-07	2.10586	0.284455	2.12498	7.69283	317889	2.35338e+06	2.37475e+06	-82.3072	0.0000000E+000	0.0000000E+000	0.0000000E+000	82.3072	0.0000000E+000	0.0000000E+000	0.0000000E+000	-82.3072	0.0000000E+000	0.0000000E+000	0.0000000E+000	-7.69283	0.0000000E+000	0.0000000E+000	0.0000000E+000	7.69283	7.40313	82.3072	NAN
117.703	0.475302	0.0631686	0.479481	-7.57037	30.1676	3.01781	0.0182812	21405.8	371.528	1	0.00519837	0.0108417	0	38	-INF	0.270928	0.0850396	4.63933	5.84598e-06	4.3973e-06	5.42865e-06	6.75218e-06	6.037e-06	3.59273e-06	0.108444	0.00847213	0.186458	2.53266e-06	8.08831e-06	1.20753e-06	7.90716e-06	6.43699e-07	1.3832e-06	2.06741	0.274763	2.08559	7.57037	371528	2.7955e+06	2.82008e+06	-82.4296	0.0000000E+000	0.0000000E+000	0.0000000E+000	82.4296	0.0000000E+000	0.0000000E+000	0.0000000E+000	-82.4296	0.0000000E+000	0.0000000E+000	0.0000000E+000	-7.57037	0.0000000E+000	0.0000000E+000	0.0000000E+000	7.57037	7.52433	82.4296	NAN
97.2725	0.48422	0.0639343	0.488422	-7.52159	30.8786	3.01781	0.0179626	25591.5	438.504	1	0.00529477	0.0108406	0	38	-INF	0.322844	0.136003	4.55446	5.24093e-06	8.64844e-06	4.30856e-06	3.80302e-06	9.10735e-06	7.44048e-06	0.109481	0.00992365	0.185179	2.96364e-06	8.14363e-06	1.24719e-06	7.86484e-06	7.31189e-07	1.27259e-06	2.02979	0.268005	2.04741	7.52159	438504	3.3211e+06	3.34992e+06	-82.4784	0.0000000E+000	0.0000000E+000	0.0000000E+000	82.4784	0.0000000E+000	0.0000000E+000	0.0000000E+000	-82.4784	0.0000000E+000	0.0000000E+000	0.0000000E+000	-7.52159	0.0000000E+000	0.0000000E+000	0.0000000E+000	7.52159	7.5737	82.4784	NAN
80.3858	0.492583	0.0631199	0.496611	-7.30213	31.5946	3.01781	0.0186949	31367.1	506.729	1	0.00538444	0.0108424	0	38	-INF	0.295076	0.192992	4.48435	3.39883e-06	8.41608e-06	3.80951e-06	8.65535e-06	5.89832e-06	5.84067e-06	0.109025	0.00584303	0.189325	2.40922e-06	8.04474e-06	1.11354e-06	8.02074e-06	5.25347e-07	1.76976e-06	1.99732	0.255938	2.01365	7.30213	506729	3.95447e+06	3.9868e+06	-82.6979	0.0000000E+000	0.0000000E+000	0.0000000E+000	82.6979	0.0000000E+000	0.0000000E+000	0.0000000E+000	-82.6979	0.0000000E+000	0.0000000E+000	0.0000000E+000	-7.30213	0.0000000E+000	0.0000000E+000	0.0000000E+000	7.30213	7.80392	82.6979	NAN
66.4242	0.501448	0.062012	0.505268	-7.04974	32.3066	3.01782	0.0193153	38638.3	582.005	1	0.00547821	0.0108422	0	38	-INF	0.317005	0.0704842	4.29537	3.80743e-06	6.38215e-06	6.1183e-06	1.0604e-05	7.17001e-06	5.12807e-06	0.109306	0.00413149	0.192827	3.01286e-06	7.99065e-06	9.37855e-07	8.03226e-06	4.27033e-07	1.37635e-06	1.96419	0.242903	1.97915	7.04974	582005	4.70627e+06	4.74212e+06	-82.9503	0.0000000E+000	0.0000000E+000	0.0000000E+000	82.9503	0.0000000E+000	0.0000000E+000	0.0000000E+000	-82.9503	0.0000000E+000	0.0000000E+000	0.0000000E+000	-7.04974	0.0000000E+000	0.0000000E+000	0.0000000E+000	7.04974	8.0863	82.9503	NAN
54.8771	0.510693	0.0608635	0.514307	-6.79635	33.0246	3.01782	0.0194252	47651	667.33	1	0.00557648	0.0108427	0	38	-INF	0.254818	0.159523	4.26561	2.25835e-06	4.53578e-06	5.18603e-06	5.0275e-06	9.12761e-06	5.38965e-06	0.10951	0.00615219	0.192534	2.80374e-06	8.27719e-06	9.39156e-07	7.83721e-06	4.47529e-07	1.43704e-06	1.9307	0.230097	1.94436	6.79635	667330	5.59943e+06	5.63906e+06	-83.2036	0.0000000E+000	0.0000000E+000	0.0000000E+000	83.2036	0.0000000E+000	0.0000000E+000	0.0000000E+000	-83.2036	0.0000000E+000	0.0000000E+000	0.0000000E+000	-6.79635	0.0000000E+000	0.0000000E+000	0.0000000E+000	6.79635	8.39079	83.2036	NAN
45.3629	0.51871	0.058765	0.522028	-6.46352	33.7406	3.01783	0.0194793	59703.6	756.572	1	0.00566005	0.0108424	0	38	-INF	0.230967	0.129732	4.23262	5.21091e-06	5.70886e-06	2.28282e-06	5.63988e-06	3.97681e-06	5.68004e-06	0.110441	0.00363088	0.196495	2.58378e-06	8.22782e-06	1.34215e-06	8.08526e-06	5.46045e-07	1.20013e-06	1.90343	0.215641	1.91561	6.46352	756571	6.67815e+06	6.72087e+06	-83.5365	0.0000000E+000	0.0000000E+000	0.0000000E+000	83.5365	0.0000000E+000	0.0000000E+000	0.0000000E+000	-83.5365	0.0000000E+000	0.0000000E+000	0.0000000E+000	-6.46352	0.0000000E+000	0.0000000E+000	0.0000000E+000	6.46352	8.82685	83.5365	NAN
37.4828	0.526154	0.0562417	0.529151	-6.10129	34.4376	3.01781	0.0191923	75497	852.876	1	0.00573735	0.0108425	0	38	-INF	0.232717	0.0841035	4.18984	3.86579e-06	5.50131e-06	5.63615e-06	6.09596e-06	3.23877e-06	4.69876e-06	0.110051	0.00842617	0.192563	2.87672e-06	7.9865e-06	9.24183e-07	8.215e-06	7.56281e-07	1.15693e-06	1.87911	0.200862	1.88982	6.10129	852876	7.97886e+06	8.02431e+06	-83.8987	0.0000000E+000	0.0000000E+000	0.0000000E+000	83.8987	0.0000000E+000	0.0000000E+000	0.0000000E+000	-83.8987	0.0000000E+000	0.0000000E+000	0.0000000E+000	-6.10129	0.0000000E+000	0.0000000E+000	0.0000000E+000	6.10129	9.35524	83.8987	NAN
30.961	0.534192	0.0537761	0.536892	-5.74849	35.1466	3.01782	0.0188756	95590.5	959.004	1	0.00582114	0.0108423	0	38	-INF	0.243826	0.0969915	4.14819	5.61653e-06	6.40331e-06	5.34432e-06	4.87292e-06	4.13998e-06	7.28048e-06	0.108202	0.00625079	0.196092	2.38233e-06	8.16497e-06	1.0537e-06	7.90682e-06	5.23899e-07	1.15565e-06	1.8532	0.186559	1.86257	5.74849	959004	9.52638e+06	9.57453e+06	-84.2515	0.0000000E+000	0.0000000E+000	0.0000000E+000	84.2515	0.0000000E+000	0.0000000E+000	0.0000000E+000	-84.2515	0.0000000E+000	0.0000000E+000	0.0000000E+000	-5.74849	0.0000000E+000	0.0000000E+000	0.0000000E+000	5.74849	9.93363	84.2515	NAN
25.598	0.540316	0.0511002	0.542727	-5.40266	35.8586	3.01782	0.0191681	121672	1078.63	1	0.00588462	0.0108427	0	38	-INF	0.191886	0.159369	4.02817	6.4161e-06	4.57031e-06	3.11265e-06	5.77856e-06	1.87327e-06	3.21639e-06	0.105559	0.00524395	0.194139	2.54487e-06	7.90282e-06	1.09006e-06	7.70649e-06	9.22691e-07	7.71104e-07	1.83436	0.173484	1.84255	5.40266	1.07863e+06	1.14051e+07	1.1456e+07	-84.5973	0.0000000E+000	0.0000000E+000	0.0000000E+000	84.5973	0.0000000E+000	0.0000000E+000	0.0000000E+000	-84.5973	0.0000000E+000	0.0000000E+000	0.0000000E+000	-5.40266	0.0000000E+000	0.0000000E+000	0.0000000E+000	5.40266	10.5737	84.5973	NAN
21.1434	0.546282	0.0486733	0.548446	-5.09157	36.5596	3.01782	0.0186315	154651	1218.06	1	0.00594672	0.0108428	0	38	-INF	0.191772	0.179375	4.00986	5.02948e-06	4.26341e-06	4.22972e-06	4.84962e-06	2.79464e-06	5.60652e-06	0.104734	0.00690998	0.197386	2.81149e-06	7.45006e-06	1.29299e-06	7.89832e-06	3.84449e-07	1.02767e-06	1.81614	0.161816	1.82333	5.09157	1.21806e+06	1.36708e+07	1.3725e+07	-84.9084	0.0000000E+000	0.0000000E+000	0.0000000E+000	84.9084	0.0000000E+000	0.0000000E+000	0.0000000E+000	-84.9084	0.0000000E+000	0.0000000E+000	0.0000000E+000	-5.09157	0.0000000E+000	0.0000000E+000	0.0000000E+000	5.09157	11.2234	84.9084	NAN
17.4776	0.552371	0.0453629	0.554231	-4.69482	37.2366	3.01782	0.0184396	200741	1344.8	1	0.00600917	0.0108424	0	38	-INF	0.229129	0.118217	3.95882	6.91596e-06	3.93602e-06	5.22858e-06	6.60159e-06	4.27557e-06	4.06391e-06	0.111994	0.00405269	0.192108	3.15615e-06	8.5119e-06	8.70369e-07	7.93016e-06	7.50845e-07	8.68427e-07	1.79825	0.147679	1.8043	4.69482	1.3448e+06	1.63752e+07	1.64303e+07	-85.3052	0.0000000E+000	0.0000000E+000	0.0000000E+000	85.3052	0.0000000E+000	0.0000000E+000	0.0000000E+000	-85.3052	0.0000000E+000	0.0000000E+000	0.0000000E+000	-4.69482	0.0000000E+000	0.0000000E+000	0.0000000E+000	4.69482	12.1767	85.3052	NAN
14.4409	0.557517	0.0429948	0.559172	-4.40983	37.9676	3.01782	0.0180241	256337	1515.48	1	0.00606287	0.0108426	0	38	-INF	0.295889	0.114665	3.98585	2.87229e-06	1.26138e-05	5.10458e-06	6.80478e-06	5.48544e-06	6.70638e-06	0.10943	0.00738709	0.194254	2.74727e-06	8.17265e-06	9.17652e-07	7.89318e-06	6.32846e-07	1.67947e-06	1.78306	0.137507	1.78836	4.40983	1.51548e+06	1.96514e+07	1.97098e+07	-85.5902	0.0000000E+000	0.0000000E+000	0.0000000E+000	85.5902	0.0000000E+000	0.0000000E+000	0.0000000E+000	-85.5902	0.0000000E+000	0.0000000E+000	0.0000000E+000	-4.40983	0.0000000E+000	0.0000000E+000	0.0000000E+000	4.40983	12.9671	85.5902	NAN
11.9366	0.561973	0.0406888	0.563444	-4.14119	38.6396	3.01783	0.0187358	327692	1708.89	1	0.00610853	0.0108414	0	38	-INF	0.189164	0.152547	3.91604	3.16065e-06	8.62869e-06	1.89568e-06	3.32205e-06	3.57612e-06	3.62181e-06	0.109356	0.00472316	0.191932	2.8445e-06	8.1378e-06	1.10811e-06	7.94234e-06	6.4325e-07	1.17499e-06	1.77017	0.128166	1.7748	4.14119	1.70889e+06	2.36023e+07	2.36641e+07	-85.8588	0.0000000E+000	0.0000000E+000	0.0000000E+000	85.8588	0.0000000E+000	0.0000000E+000	0.0000000E+000	-85.8588	0.0000000E+000	0.0000000E+000	0.0000000E+000	-4.14119	0.0000000E+000	0.0000000E+000	0.0000000E+000	4.14119	13.8115	85.8588	NAN
9.86427	0.566197	0.0389904	0.567538	-3.93937	39.3616	3.01783	0.0186185	413807	1953.09	1	0.00615322	0.0108419	0	38	-INF	0.194529	0.120341	3.85892	2.97166e-06	4.8772e-06	3.02514e-06	6.29276e-06	4.9737e-06	5.40128e-06	0.108471	0.0049332	0.199004	2.50709e-06	8.10892e-06	9.38498e-07	7.91268e-06	8.69868e-07	1.35942e-06	1.75783	0.121051	1.762	3.93937	1.95309e+06	2.83617e+07	2.84289e+07	-86.0606	0.0000000E+000	0.0000000E+000	0.0000000E+000	86.0606	0.0000000E+000	0.0000000E+000	0.0000000E+000	-86.0606	0.0000000E+000	0.0000000E+000	0.0000000E+000	-3.93937	0.0000000E+000	0.0000000E+000	0.0000000E+000	3.93937	14.5215	86.0606	NAN
8.14654	0.570004	0.0372444	0.57122	-3.73843	40.1566	3.01783	0.0176272	524549	2229.98	1	0.0061931	0.0108419	0	38	-INF	0.176997	0.0636109	2.748	4.60022e-06	4.66239e-06	3.06521e-06	5.83406e-06	3.26479e-06	3.58703e-06	0.108086	0.00481395	0.14399	2.70274e-06	8.0557e-06	9.46655e-07	7.89562e-06	5.12576e-07	1.23919e-06	1.74691	0.114144	1.75064	3.73843	2.22998e+06	3.41286e+07	3.42014e+07	-86.2616	0.0000000E+000	0.0000000E+000	0.0000000E+000	86.2616	0.0000000E+000	0.0000000E+000	0.0000000E+000	-86.2616	0.0000000E+000	0.0000000E+000	0.0000000E+000	-3.73843	0.0000000E+000	0.0000000E+000	0.0000000E+000	3.73843	15.3044	86.2616	NAN
6.73492	0.573163	0.036236	0.574307	-3.61749	41.0466	3.01784	0.018257	652151	2596.21	1	0.00622629	0.0108414	0	38	-INF	0.157709	0.0562972	2.72635	3.14138e-06	7.37094e-06	3.18847e-06	2.68589e-06	1.46103e-06	3.02472e-06	0.109939	0.00438594	0.15137	2.65263e-06	8.23073e-06	8.53768e-07	7.96406e-06	8.84115e-07	1.50657e-06	1.73776	0.109863	1.74123	3.61749	2.59621e+06	4.10656e+07	4.11475e+07	-86.3825	0.0000000E+000	0.0000000E+000	0.0000000E+000	86.3825	0.0000000E+000	0.0000000E+000	0.0000000E+000	-86.3825	0.0000000E+000	0.0000000E+000	0.0000000E+000	-3.61749	0.0000000E+000	0.0000000E+000	0.0000000E+000	3.61749	15.8175	86.3825	NAN
5.56446	0.576623	0.0355778	0.577719	-3.53069	42.0556	3.01784	0.018743	803931	3048.89	1	0.00626406	0.0108427	0	38	-INF	0.165428	0.0726819	2.19592	3.60082e-06	6.6784e-06	2.27679e-06	4.49706e-06	3.06744e-06	2.73674e-06	0.106921	0.00340039	0.128825	2.7538e-06	7.78145e-06	8.95972e-07	7.95761e-06	7.31872e-07	1.24937e-06	1.72766	0.106597	1.73094	3.53069	3.04889e+06	4.94146e+07	4.95086e+07	-86.4693	0.0000000E+000	0.0000000E+000	0.0000000E+000	86.4693	0.0000000E+000	0.0000000E+000	0.0000000E+000	-86.4693	0.0000000E+000	0.0000000E+000	0.0000000E+000	-3.53069	0.0000000E+000	0.0000000E+000	0.0000000E+000	3.53069	16.2074	86.4693	NAN
4.601	0.580073	0.0352869	0.581145	-3.48112	43.2116	3.01783	0.0197117	980289	3614.2	1	0.00630054	0.0108416	0	38	-INF	0.153764	0.118884	1.92995	1.92249e-06	4.87923e-06	3.06181e-06	6.4068e-06	2.34371e-06	1.65456e-06	0.107316	0.0029532	0.118531	2.81644e-06	7.96274e-06	9.95955e-07	7.83006e-06	5.39696e-07	1.18614e-06	1.71757	0.104483	1.72074	3.48112	3.6142e+06	5.9413e+07	5.95228e+07	-86.5189	0.0000000E+000	0.0000000E+000	0.0000000E+000	86.5189	0.0000000E+000	0.0000000E+000	0.0000000E+000	-86.5189	0.0000000E+000	0.0000000E+000	0.0000000E+000	-3.48112	0.0000000E+000	0.0000000E+000	0.0000000E+000	3.48112	16.4388	86.5189	NAN
3.79986	0.583311	0.0353446	0.584381	-3.46749	44.5506	3.01784	0.0203135	1.18503e+06	4334.96	1	0.00633639	0.0108429	0	38	-INF	0.163683	0.0622708	1.90188	2.45262e-06	7.86267e-06	2.39172e-06	4.90984e-06	2.32106e-06	1.32775e-06	0.109934	0.00346709	0.119009	2.82985e-06	8.04645e-06	1.02391e-06	8.16093e-06	5.97098e-07	1.13287e-06	1.70808	0.103498	1.71121	3.46749	4.33496e+06	7.15421e+07	7.16733e+07	-86.5325	0.0000000E+000	0.0000000E+000	0.0000000E+000	86.5325	0.0000000E+000	0.0000000E+000	0.0000000E+000	-86.5325	0.0000000E+000	0.0000000E+000	0.0000000E+000	-3.46749	0.0000000E+000	0.0000000E+000	0.0000000E+000	3.46749	16.5035	86.5325	NAN
3.1407	0.586895	0.0359274	0.587994	-3.50305	46.1116	3.01785	0.0196432	1.41048e+06	5265.91	1	0.00637544	0.0108427	0	38	-INF	0.121416	0.0525801	1.6809	1.4859e-06	6.3294e-06	1.25247e-06	2.90311e-06	1.9674e-06	1.2227e-06	0.107849	0.00457752	0.1087	2.63524e-06	8.00723e-06	1.05178e-06	7.92862e-06	5.61741e-07	1.16981e-06	1.69752	0.103915	1.7007	3.50305	5.2659e+06	8.60217e+07	8.61827e+07	-86.497	0.0000000E+000	0.0000000E+000	0.0000000E+000	86.497	0.0000000E+000	0.0000000E+000	0.0000000E+000	-86.497	0.0000000E+000	0.0000000E+000	0.0000000E+000	-3.50305	0.0000000E+000	0.0000000E+000	0.0000000E+000	3.50305	16.3356	86.497	NAN
2.59551	0.590253	0.0369126	0.591406	-3.57845	47.9426	3.01784	0.019346	1.6612e+06	6471.44	1	0.00641266	0.0108431	0	38	-INF	0.134406	0.0722679	1.44018	2.17654e-06	5.91845e-06	2.72629e-06	4.2874e-06	2.22258e-06	9.96284e-07	0.108559	0.00353546	0.102774	2.75331e-06	7.89067e-06	1.18893e-06	8.06636e-06	5.91449e-07	1.35613e-06	1.68759	0.105537	1.69089	3.57845	6.47143e+06	1.03482e+08	1.03684e+08	-86.4216	0.0000000E+000	0.0000000E+000	0.0000000E+000	86.4216	0.0000000E+000	0.0000000E+000	0.0000000E+000	-86.4216	0.0000000E+000	0.0000000E+000	0.0000000E+000	-3.57845	0.0000000E+000	0.0000000E+000	0.0000000E+000	3.57845	15.9905	86.4216	NAN
2.14393	0.593817	0.0384782	0.595062	-3.70747	50.1046	3.01783	0.0198838	1.92927e+06	8066.75	1	0.00645203	0.0108426	0	38	-INF	0.116416	0.0605976	1.31616	1.30498e-06	5.25592e-06	1.01853e-06	4.08472e-06	1.94666e-06	1.43056e-06	0.107343	0.00442809	0.0986346	2.6433e-06	7.89677e-06	1.04174e-06	7.96095e-06	5.82172e-07	1.13988e-06	1.67698	0.108665	1.6805	3.70747	8.06675e+06	1.24491e+08	1.24752e+08	-86.2925	0.0000000E+000	0.0000000E+000	0.0000000E+000	86.2925	0.0000000E+000	0.0000000E+000	0.0000000E+000	-86.2925	0.0000000E+000	0.0000000E+000	0.0000000E+000	-3.70747	0.0000000E+000	0.0000000E+000	0.0000000E+000	3.70747	15.4326	86.2925	NAN
1.77154	0.597487	0.0400499	0.598828	-3.83483	52.6676	3.01784	0.019079	2.2432e+06	10033.8	1	0.00649287	0.0108426	0	38	-INF	0.132152	0.0640388	1.17841	1.86726e-06	6.03581e-06	1.83246e-06	4.51383e-06	1.95794e-06	1.88265e-06	0.108417	0.00262226	0.0939381	2.70145e-06	8.05307e-06	1.09654e-06	7.9332e-06	6.59011e-07	1.19675e-06	1.66619	0.111686	1.66993	3.83483	1.00338e+07	1.4969e+08	1.50026e+08	-86.1652	0.0000000E+000	0.0000000E+000	0.0000000E+000	86.1652	0.0000000E+000	0.0000000E+000	0.0000000E+000	-86.1652	0.0000000E+000	0.0000000E+000	0.0000000E+000	-3.83483	0.0000000E+000	0.0000000E+000	0.0000000E+000	3.83483	14.9186	86.1652	NAN
1.46466	0.601036	0.0424117	0.602531	-4.03635	55.7126	3.01784	0.0183582	2.56211e+06	12694.4	1	0.00653278	0.0108422	0	38	-INF	0.124093	0.0455191	1.05467	1.81151e-06	6.04917e-06	2.5173e-06	3.40413e-06	1.93596e-06	1.40216e-06	0.108279	0.00390374	0.0936081	2.7907e-06	7.90331e-06	1.05142e-06	8.04429e-06	4.50267e-07	1.2428e-06	1.65555	0.116823	1.65967	4.03635	1.26944e+07	1.79898e+08	1.80345e+08	-85.9637	0.0000000E+000	0.0000000E+000	0.0000000E+000	85.9637	0.0000000E+000	0.0000000E+000	0.0000000E+000	-85.9637	0.0000000E+000	0.0000000E+000	0.0000000E+000	-4.03635	0.0000000E+000	0.0000000E+000	0.0000000E+000	4.03635	14.1715	85.9637	NAN
1.20983	0.605018	0.0451387	0.6067	-4.26678	59.3476	3.01785	0.0178339	2.91437e+06	16132.3	1	0.00657813	0.0108425	0	38	-INF	0.139426	0.053484	0.932002	1.9203e-06	5.42471e-06	2.01244e-06	6.44936e-06	1.70598e-06	1.3192e-06	0.108199	0.00209636	0.0897339	2.67736e-06	8.01979e-06	1.06287e-06	7.94141e-06	6.27487e-07	1.23781e-06	1.64369	0.122632	1.64826	4.26678	1.61323e+07	2.1623e+08	2.16831e+08	-85.7332	0.0000000E+000	0.0000000E+000	0.0000000E+000	85.7332	0.0000000E+000	0.0000000E+000	0.0000000E+000	-85.7332	0.0000000E+000	0.0000000E+000	0.0000000E+000	-4.26678	0.0000000E+000	0.0000000E+000	0.0000000E+000	4.26678	13.4035	85.7332	NAN
1.00006	0.609287	0.048566	0.611219	-4.55739	63.6926	3.01783	0.018309	3.27689e+06	20688.6	1	0.00662696	0.0108422	0	38	-INF	0.109048	0.0641197	0.858222	1.59091e-06	4.71202e-06	9.12908e-07	4.32494e-06	1.99091e-06	9.66208e-07	0.108045	0.00271836	0.0878907	2.57814e-06	8.05195e-06	1.11727e-06	7.9206e-06	6.01919e-07	1.1759e-06	1.6309	0.129998	1.63607	4.55739	2.06886e+07	2.5955e+08	2.60373e+08	-85.4426	0.0000000E+000	0.0000000E+000	0.0000000E+000	85.4426	0.0000000E+000	0.0000000E+000	0.0000000E+000	-85.4426	0.0000000E+000	0.0000000E+000	0.0000000E+000	-4.55739	0.0000000E+000	0.0000000E+000	0.0000000E+000	4.55739	12.5456	85.4426	NAN